File: XRD/MD6_258_6_g2_full_spectrum.csv
,x,y
0,5.00836,109.843
4,5.0752,103.15
8,5.14205,96.2598
12,5.20889,105.315
16,5.27574,94.0945
20,5.34258,98.8189
24,5.40943,87.0079
28,5.47627,91.3386
32,5.54312,90.1575
36,5.60996,87.5984
40,5.67681,80.9055
44,5.74365,83.8583
48,5.8105,92.9134
52,5.87734,91.7323
56,5.94419,85.8268
60,6.01103,84.6457
64,6.07788,75.5906
68,6.14472,75.3937
72,6.21157,85.2362
76,6.27841,76.378
80,6.34526,74.4094
84,6.4121,70.8661
88,6.47895,76.5748
92,6.54579,83.6614
96,6.61264,72.4409
100,6.67948,77.3622
104,6.74633,77.7559
108,6.81317,81.4961
112,6.88002,76.378
116,6.94686,70.8661
120,7.01371,82.6772
124,7.08055,79.9213
128,7.1474,76.5748
132,7.21424,74.2126
136,7.28109,71.6535
140,7.34793,73.4252
144,7.41478,71.6535
148,7.48162,73.622
152,7.54847,72.0472
156,7.61531,72.8346
160,7.68216,66.3386
164,7.749,64.5669
168,7.81585,69.685
172,7.88269,75.3937
176,7.94954,67.5197
180,8.01638,73.2283
184,8.08323,70.4724
188,8.15007,72.8346
192,8.21692,66.1417
196,8.28376,73.4252
200,8.35061,65.1575
204,8.41745,60.4331
208,8.4843,64.7638
212,8.55114,63.5827
216,8.61799,62.4016
220,8.68483,65.748
224,8.75168,74.8031
228,8.81852,70.8661
232,8.88537,66.3386
236,8.95222,67.5197
240,9.01906,67.5197
244,9.08591,60.4331
248,9.15275,60.0394
252,9.2196,58.6614
256,9.28644,58.6614
260,9.35329,60.8268
264,9.42013,70.6693
268,9.48698,53.937
272,9.55382,63.7795
276,9.62067,60.4331
280,9.68751,58.6614
284,9.75436,51.5748
288,9.8212,60.2362
292,9.88805,53.1496
296,9.95489,64.9606
300,10.0217,51.9685
304,10.0886,57.6772
308,10.1554,60.8268
312,10.2223,59.0551
316,10.2891,58.6614
320,10.356,57.4803
324,10.4228,55.315
328,10.4897,56.4961
332,10.5565,48.2283
336,10.6233,57.0866
340,10.6902,57.4803
344,10.757,55.5118
348,10.8239,54.3307
352,10.8907,51.9685
356,10.9576,50.3937
360,11.0244,56.4961
364,11.0913,52.9528
368,11.1581,52.9528
372,11.2249,49.8031
376,11.2918,51.1811
380,11.3586,52.9528
384,11.4255,48.8189
388,11.4923,52.5591
392,11.5592,45.4724
396,11.626,44.4882
400,11.6929,42.9134
404,11.7597,54.9213
408,11.8266,51.5748
412,11.8934,51.378
416,11.9602,47.0472
420,12.0271,48.8189
424,12.0939,49.4094
428,12.1608,47.0472
432,12.2276,50.0
436,12.2945,45.2756
440,12.3613,48.2283
444,12.4282,52.5591
448,12.495,47.2441
452,12.5618,48.622
456,12.6287,52.7559
460,12.6955,45.0787
464,12.7624,45.2756
468,12.8292,47.8346
472,12.8961,46.6535
476,12.9629,41.9291
480,13.0298,37.9921
484,13.0966,40.748
488,13.1635,46.4567
492,13.2303,42.7165
496,13.2971,44.8819
500,13.364,43.3071
504,13.4308,47.2441
508,13.4977,35.8268
512,13.5645,41.3386
516,13.6314,36.0236
520,13.6982,40.748
524,13.7651,42.7165
528,13.8319,40.5512
532,13.8988,36.811
536,13.9656,37.9921
540,14.0324,41.5354
544,14.0993,40.748
548,14.1661,32.2835
552,14.233,39.1732
556,14.2998,32.4803
560,14.3667,37.9921
564,14.4335,39.9606
568,14.5004,32.0866
572,14.5672,37.4016
576,14.634,32.4803
580,14.7009,35.4331
584,14.7677,35.2362
588,14.8346,32.2835
592,14.9014,32.874
596,14.9683,33.6614
600,15.0351,30.315
604,15.102,33.8583
608,15.1688,32.4803
612,15.2357,31.4961
616,15.3025,28.7402
620,15.3693,25.7874
624,15.4362,33.4646
628,15.503,27.9528
632,15.5699,30.1181
636,15.6367,31.8898
640,15.7036,34.8425
644,15.7704,30.1181
648,15.8373,30.7087
652,15.9041,27.1654
656,15.9709,28.5433
660,16.0378,28.1496
664,16.1046,29.9213
668,16.1715,27.3622
672,16.2383,27.9528
676,16.3052,27.5591
680,16.372,25.9843
684,16.4389,22.8346
688,16.5057,30.7087
692,16.5726,24.0157
696,16.6394,22.4409
700,16.7062,24.0157
704,16.7731,29.9213
708,16.8399,23.2283
712,16.9068,20.4724
716,16.9736,21.8504
720,17.0405,21.6535
724,17.1073,23.0315
728,17.1742,25.5906
732,17.241,24.6063
736,17.3078,24.4094
740,17.3747,21.4567
744,17.4415,25.0
748,17.5084,24.8031
752,17.5752,22.0472
756,17.6421,22.8346
760,17.7089,24.8031
764,17.7758,20.6693
768,17.8426,18.1102
772,17.9095,19.8819
776,17.9763,21.8504
780,18.0431,20.6693
784,18.11,23.622
788,18.1768,19.8819
792,18.2437,19.0945
796,18.3105,19.8819
800,18.3774,19.8819
804,18.4442,19.8819
808,18.5111,21.6535
812,18.5779,24.0157
816,18.6448,21.4567
820,18.7116,21.063
824,18.7784,20.2756
828,18.8453,21.8504
832,18.9121,17.9134
836,18.979,19.0945
840,19.0458,20.4724
844,19.1127,17.9134
848,19.1795,18.8976
852,19.2464,25.3937
856,19.3132,16.5354
860,19.38,17.5197
864,19.4469,19.8819
868,19.5137,18.7008
872,19.5806,16.7323
876,19.6474,16.7323
880,19.7143,14.5669
884,19.7811,17.3228
888,19.848,20.4724
892,19.9148,17.9134
896,19.9817,18.7008
900,20.0485,17.126
904,20.1153,18.8976
908,20.1822,18.8976
912,20.249,15.3543
916,20.3159,18.1102
920,20.3827,18.1102
924,20.4496,18.3071
928,20.5164,16.9291
932,20.5833,12.5984
936,20.6501,15.748
940,20.7169,20.6693
944,20.7838,18.1102
948,20.8506,18.7008
952,20.9175,17.3228
956,20.9843,19.0945
960,21.0512,17.5197
964,21.118,15.1575
968,21.1849,16.9291
972,21.2517,16.9291
976,21.3186,12.9921
980,21.3854,18.8976
984,21.4522,14.9606
988,21.5191,18.1102
992,21.5859,13.189
996,21.6528,14.9606
1000,21.7196,16.7323
1004,21.7865,15.5512
1008,21.8533,15.748
1012,21.9202,17.3228
1016,21.987,14.9606
1020,22.0538,15.3543
1024,22.1207,16.1417
1028,22.1875,17.5197
1032,22.2544,20.2756
1036,22.3212,16.1417
1040,22.3881,13.7795
1044,22.4549,14.3701
1048,22.5218,14.5669
1052,22.5886,15.3543
1056,22.6555,18.5039
1060,22.7223,13.5827
1064,22.7891,11.6142
1068,22.856,18.5039
1072,22.9228,12.9921
1076,22.9897,14.1732
1080,23.0565,12.5984
1084,23.1234,15.1575
1088,23.1902,13.7795
1092,23.2571,15.9449
1096,23.3239,17.126
1100,23.3908,14.3701
1104,23.4576,12.9921
1108,23.5244,13.9764
1112,23.5913,14.3701
1116,23.6581,12.2047
1120,23.725,12.5984
1124,23.7918,15.3543
1128,23.8587,13.7795
1132,23.9255,18.3071
1136,23.9924,17.126
1140,24.0592,15.5512
1144,24.126,16.7323
1148,24.1929,20.2756
1152,24.2597,23.4252
1156,24.3266,18.7008
1160,24.3934,16.9291
1164,24.4603,15.3543
1168,24.5271,17.9134
1172,24.594,13.7795
1176,24.6608,18.3071
1180,24.7277,11.4173
1184,24.7945,12.5984
1188,24.8613,11.2205
1192,24.9282,13.9764
1196,24.995,16.7323
1200,25.0619,12.9921
1204,25.1287,10.6299
1208,25.1956,13.7795
1212,25.2624,17.126
1216,25.3293,12.2047
1220,25.3961,12.4016
1224,25.4629,12.0079
1228,25.5298,15.3543
1232,25.5966,15.1575
1236,25.6635,12.2047
1240,25.7303,16.7323
1244,25.7972,15.9449
1248,25.864,11.0236
1252,25.9309,16.7323
1256,25.9977,12.7953
1260,26.0646,14.1732
1264,26.1314,11.6142
1268,26.1982,14.3701
1272,26.2651,8.46457
1276,26.3319,13.5827
1280,26.3988,11.4173
1284,26.4656,13.5827
1288,26.5325,12.7953
1292,26.5993,15.5512
1296,26.6662,14.3701
1300,26.733,18.8976
1304,26.7999,24.4094
1308,26.8667,22.6378
1312,26.9335,16.1417
1316,27.0004,15.1575
1320,27.0672,16.9291
1324,27.1341,11.4173
1328,27.2009,11.4173
1332,27.2678,12.0079
1336,27.3346,11.4173
1340,27.4015,15.3543
1344,27.4683,12.7953
1348,27.5351,11.2205
1352,27.602,9.05512
1356,27.6688,14.9606
1360,27.7357,14.5669
1364,27.8025,10.6299
1368,27.8694,14.9606
1372,27.9362,12.4016
1376,28.0031,9.25197
1380,28.0699,14.5669
1384,28.1368,15.9449
1388,28.2036,12.2047
1392,28.2704,14.3701
1396,28.3373,13.189
1400,28.4041,14.3701
1404,28.471,12.2047
1408,28.5378,14.9606
1412,28.6047,13.5827
1416,28.6715,11.4173
1420,28.7384,11.6142
1424,28.8052,13.9764
1428,28.872,13.7795
1432,28.9389,12.2047
1436,29.0057,12.0079
1440,29.0726,16.1417
1444,29.1394,11.2205
1448,29.2063,14.3701
1452,29.2731,12.0079
1456,29.34,12.0079
1460,29.4068,12.2047
1464,29.4737,14.3701
1468,29.5405,16.1417
1472,29.6073,14.1732
1476,29.6742,16.5354
1480,29.741,12.4016
1484,29.8079,14.1732
1488,29.8747,15.5512
1492,29.9416,12.7953
1496,30.0084,14.3701
1500,30.0753,11.0236
1504,30.1421,12.2047
1508,30.2089,12.7953
1512,30.2758,16.1417
1516,30.3426,15.1575
1520,30.4095,12.4016
1524,30.4763,18.5039
1528,30.5432,14.3701
1532,30.61,20.4724
1536,30.6769,24.6063
1540,30.7437,29.3307
1544,30.8106,34.8425
1548,30.8774,50.7874
1552,30.9442,62.0079
1556,31.0111,100.787
1560,31.0779,142.717
1564,31.1448,151.969
1568,31.2116,115.748
1572,31.2785,70.8661
1576,31.3453,48.8189
1580,31.4122,31.4961
1584,31.479,24.4094
1588,31.5459,24.0157
1592,31.6127,20.0787
1596,31.6795,17.3228
1600,31.7464,14.1732
1604,31.8132,12.9921
1608,31.8801,14.1732
1612,31.9469,14.5669
1616,32.0138,15.5512
1620,32.0806,14.9606
1624,32.1475,12.2047
1628,32.2143,12.4016
1632,32.2811,13.189
1636,32.348,12.0079
1640,32.4148,12.7953
1644,32.4817,11.0236
1648,32.5485,11.4173
1652,32.6154,12.2047
1656,32.6822,10.6299
1660,32.7491,10.6299
1664,32.8159,10.8268
1668,32.8828,10.2362
1672,32.9496,9.84252
1676,33.0164,12.0079
1680,33.0833,12.4016
1684,33.1501,9.44882
1688,33.217,13.5827
1692,33.2838,13.189
1696,33.3507,12.2047
1700,33.4175,12.9921
1704,33.4844,14.9606
1708,33.5512,15.5512
1712,33.618,14.3701
1716,33.6849,18.8976
1720,33.7517,15.3543
1724,33.8186,17.5197
1728,33.8854,14.5669
1732,33.9523,16.1417
1736,34.0191,9.84252
1740,34.086,12.2047
1744,34.1528,12.2047
1748,34.2197,10.6299
1752,34.2865,12.7953
1756,34.3533,11.4173
1760,34.4202,10.8268
1764,34.487,11.0236
1768,34.5539,12.7953
1772,34.6207,10.6299
1776,34.6876,13.189
1780,34.7544,11.0236
1784,34.8213,9.25197
1788,34.8881,8.66142
1792,34.9549,13.189
1796,35.0218,11.4173
1800,35.0886,11.2205
1804,35.1555,12.9921
1808,35.2223,9.84252
1812,35.2892,14.3701
1816,35.356,12.0079
1820,35.4229,18.3071
1824,35.4897,14.5669
1828,35.5566,15.748
1832,35.6234,13.5827
1836,35.6902,12.9921
1840,35.7571,12.9921
1844,35.8239,9.25197
1848,35.8908,11.4173
1852,35.9576,11.6142
1856,36.0245,9.84252
1860,36.0913,11.6142
1864,36.1582,9.25197
1868,36.225,9.64567
1872,36.2919,7.48031
1876,36.3587,12.4016
1880,36.4255,11.4173
1884,36.4924,10.0394
1888,36.5592,11.4173
1892,36.6261,8.46457
1896,36.6929,11.6142
1900,36.7598,13.5827
1904,36.8266,11.0236
1908,36.8935,11.2205
1912,36.9603,9.64567
1916,37.0271,10.8268
1920,37.094,11.2205
1924,37.1608,9.64567
1928,37.2277,13.189
1932,37.2945,14.1732
1936,37.3614,15.1575
1940,37.4282,25.0
1944,37.4951,20.0787
1948,37.5619,24.2126
1952,37.6288,22.8346
1956,37.6956,21.4567
1960,37.7624,12.5984
1964,37.8293,12.5984
1968,37.8961,9.25197
1972,37.963,12.4016
1976,38.0298,8.66142
1980,38.0967,10.2362
1984,38.1635,10.6299
1988,38.2304,9.84252
1992,38.2972,9.64567
1996,38.364,13.7795
2000,38.4309,9.64567
2004,38.4977,11.2205
2008,38.5646,11.4173
2012,38.6314,9.84252
2016,38.6983,10.6299
2020,38.7651,6.69291
2024,38.832,7.48031
2028,38.8988,10.2362
2032,38.9657,8.46457
2036,39.0325,10.2362
2040,39.0993,8.66142
2044,39.1662,8.46457
2048,39.233,8.46457
2052,39.2999,7.08661
2056,39.3667,11.2205
2060,39.4336,12.5984
2064,39.5004,11.0236
2068,39.5673,12.2047
2072,39.6341,9.25197
2076,39.701,9.64567
2080,39.7678,9.84252
2084,39.8346,10.2362
2088,39.9015,12.0079
2092,39.9683,10.6299
2096,40.0352,9.05512
2100,40.102,11.4173
2104,40.1689,9.64567
2108,40.2357,6.49606
2112,40.3026,12.7953
2116,40.3694,8.07087
2120,40.4362,12.9921
2124,40.5031,8.66142
2128,40.5699,9.84252
2132,40.6368,10.6299
2136,40.7036,9.84252
2140,40.7705,11.4173
2144,40.8373,12.5984
2148,40.9042,18.3071
2152,40.971,15.3543
2156,41.0379,19.4882
2160,41.1047,22.4409
2164,41.1715,27.3622
2168,41.2384,48.622
2172,41.3052,47.2441
2176,41.3721,46.6535
2180,41.4389,36.811
2184,41.5058,28.1496
2188,41.5726,21.6535
2192,41.6395,18.7008
2196,41.7063,14.1732
2200,41.7731,14.3701
2204,41.84,16.1417
2208,41.9068,12.4016
2212,41.9737,10.2362
2216,42.0405,11.2205
2220,42.1074,7.87402
2224,42.1742,10.2362
2228,42.2411,8.07087
2232,42.3079,10.0394
2236,42.3748,10.6299
2240,42.4416,10.6299
2244,42.5084,10.2362
2248,42.5753,7.87402
2252,42.6421,6.88976
2256,42.709,6.88976
2260,42.7758,10.2362
2264,42.8427,9.44882
2268,42.9095,7.48031
2272,42.9764,6.88976
2276,43.0432,6.29921
2280,43.11,9.64567
2284,43.1769,9.44882
2288,43.2437,11.0236
2292,43.3106,6.69291
2296,43.3774,10.2362
2300,43.4443,9.64567
2304,43.5111,10.8268
2308,43.578,10.0394
2312,43.6448,9.64567
2316,43.7117,10.2362
2320,43.7785,10.2362
2324,43.8453,11.4173
2328,43.9122,12.7953
2332,43.979,15.1575
2336,44.0459,15.3543
2340,44.1127,11.4173
2344,44.1796,11.0236
2348,44.2464,11.4173
2352,44.3133,11.0236
2356,44.3801,11.4173
2360,44.447,9.64567
2364,44.5138,11.6142
2368,44.5806,12.0079
2372,44.6475,10.8268
2376,44.7143,11.2205
2380,44.7812,15.748
2384,44.848,15.1575
2388,44.9149,16.5354
2392,44.9817,24.0157
2396,45.0486,29.3307
2400,45.1154,29.1339
2404,45.1822,25.9843
2408,45.2491,26.378
2412,45.3159,19.0945
2416,45.3828,13.7795
2420,45.4496,13.7795
2424,45.5165,12.4016
2428,45.5833,11.4173
2432,45.6502,9.64567
2436,45.717,11.0236
2440,45.7839,10.6299
2444,45.8507,10.0394
2448,45.9175,10.0394
2452,45.9844,9.44882
2456,46.0512,7.67717
2460,46.1181,10.0394
2464,46.1849,9.84252
2468,46.2518,7.67717
2472,46.3186,7.87402
2476,46.3855,7.67717
2480,46.4523,9.44882
2484,46.5191,8.66142
2488,46.586,6.88976
2492,46.6528,8.46457
2496,46.7197,9.44882
2500,46.7865,7.67717
2504,46.8534,6.88976
2508,46.9202,6.29921
2512,46.9871,9.25197
2516,47.0539,9.05512
2520,47.1208,10.2362
2524,47.1876,11.0236
2528,47.2544,6.49606
2532,47.3213,8.46457
2536,47.3881,6.49606
2540,47.455,7.48031
2544,47.5218,9.64567
2548,47.5887,11.0236
2552,47.6555,10.2362
2556,47.7224,9.05512
2560,47.7892,7.67717
2564,47.856,7.87402
2568,47.9229,9.05512
2572,47.9897,11.0236
2576,48.0566,9.25197
2580,48.1234,6.88976
2584,48.1903,8.26772
2588,48.2571,7.87402
2592,48.324,9.05512
2596,48.3908,7.87402
2600,48.4577,9.44882
2604,48.5245,9.64567
2608,48.5913,9.44882
2612,48.6582,11.2205
2616,48.725,10.6299
2620,48.7919,12.4016
2624,48.8587,10.0394
2628,48.9256,10.2362
2632,48.9924,10.0394
2636,49.0593,10.2362
2640,49.1261,8.66142
2644,49.193,10.8268
2648,49.2598,13.189
2652,49.3266,12.5984
2656,49.3935,18.1102
2660,49.4603,12.9921
2664,49.5272,13.9764
2668,49.594,11.6142
2672,49.6609,12.4016
2676,49.7277,13.7795
2680,49.7946,10.8268
2684,49.8614,11.4173
2688,49.9282,11.4173
2692,49.9951,12.2047
2696,50.0619,11.6142
2700,50.1288,10.8268
2704,50.1956,13.7795
2708,50.2625,15.9449
2712,50.3293,13.7795
2716,50.3962,17.3228
2720,50.463,22.4409
2724,50.5299,22.8346
2728,50.5967,31.1024
2732,50.6635,32.874
2736,50.7304,35.8268
2740,50.7972,33.2677
2744,50.8641,32.4803
2748,50.9309,29.1339
2752,50.9978,28.7402
2756,51.0646,27.3622
2760,51.1315,31.1024
2764,51.1983,41.1417
2768,51.2651,38.5827
2772,51.332,36.2205
2776,51.3988,27.9528
2780,51.4657,22.8346
2784,51.5325,15.748
2788,51.5994,16.5354
2792,51.6662,15.5512
2796,51.7331,16.9291
2800,51.7999,13.7795
2804,51.8668,11.2205
2808,51.9336,10.6299
2812,52.0004,10.2362
2816,52.0673,7.87402
2820,52.1341,8.46457
2824,52.201,11.2205
2828,52.2678,6.88976
2832,52.3347,9.44882
2836,52.4015,10.8268
2840,52.4684,9.84252
2844,52.5352,7.67717
2848,52.602,8.66142
2852,52.6689,9.25197
2856,52.7357,8.46457
2860,52.8026,9.25197
2864,52.8694,10.0394
2868,52.9363,7.67717
2872,53.0031,9.44882
2876,53.07,8.07087
2880,53.1368,7.87402
2884,53.2037,9.25197
2888,53.2705,8.46457
2892,53.3373,6.88976
2896,53.4042,7.67717
2900,53.471,10.8268
2904,53.5379,7.87402
2908,53.6047,7.67717
2912,53.6716,8.07087
2916,53.7384,7.67717
2920,53.8053,7.08661
2924,53.8721,4.13386
2928,53.939,6.10236
2932,54.0058,6.29921
2936,54.0726,6.88976
2940,54.1395,6.88976
2944,54.2063,7.87402
2948,54.2732,7.48031
2952,54.34,8.26772
2956,54.4069,6.49606
2960,54.4737,5.70866
2964,54.5406,7.48031
2968,54.6074,7.08661
2972,54.6742,7.67717
2976,54.7411,7.87402
2980,54.8079,6.29921
2984,54.8748,5.51181
2988,54.9416,6.10236
2992,55.0085,9.25197
2996,55.0753,7.48031
3000,55.1422,6.49606
3004,55.209,4.72441
3008,55.2759,5.11811
3012,55.3427,4.72441
3016,55.4095,7.67717
3020,55.4764,6.49606
3024,55.5432,5.51181
3028,55.6101,6.88976
3032,55.6769,6.49606
3036,55.7438,6.29921
3040,55.8106,7.48031
3044,55.8775,6.88976
3048,55.9443,5.70866
3052,56.0111,6.49606
3056,56.078,8.26772
3060,56.1448,4.13386
3064,56.2117,8.07087
3068,56.2785,6.29921
3072,56.3454,5.70866
3076,56.4122,6.10236
3080,56.4791,8.07087
3084,56.5459,8.66142
3088,56.6128,7.87402
3092,56.6796,9.05512
3096,56.7464,7.87402
3100,56.8133,7.87402
3104,56.8801,8.66142
3108,56.947,7.67717
3112,57.0138,8.26772
3116,57.0807,5.70866
3120,57.1475,6.29921
3124,57.2144,7.67717
3128,57.2812,7.67717
3132,57.3481,6.10236
3136,57.4149,5.51181
3140,57.4817,7.48031
3144,57.5486,8.07087
3148,57.6154,5.11811
3152,57.6823,9.64567
3156,57.7491,6.49606
3160,57.816,9.05512
3164,57.8828,7.87402
3168,57.9497,6.88976
3172,58.0165,7.67717
3176,58.0833,4.72441
3180,58.1502,7.08661
3184,58.217,8.26772
3188,58.2839,6.49606
3192,58.3507,7.08661
3196,58.4176,4.92126
3200,58.4844,6.88976
3204,58.5513,7.08661
3208,58.6181,9.25197
3212,58.685,4.92126
3216,58.7518,9.05512
3220,58.8186,10.8268
3224,58.8855,8.66142
3228,58.9523,10.2362
3232,59.0192,12.4016
3236,59.086,12.4016
3240,59.1529,11.0236
3244,59.2197,9.64567
3248,59.2866,10.0394
3252,59.3534,9.84252
3256,59.4202,8.66142
3260,59.4871,9.44882
3264,59.5539,8.26772
3268,59.6208,10.2362
3272,59.6876,11.2205
3276,59.7545,12.4016
3280,59.8213,10.6299
3284,59.8882,17.126
3288,59.955,18.1102
3292,60.0219,20.4724
3296,60.0887,17.9134
3300,60.1555,17.5197
3304,60.2224,11.6142
3308,60.2892,9.84252
3312,60.3561,9.84252
3316,60.4229,9.64567
3320,60.4898,6.49606
3324,60.5566,8.46457
3328,60.6235,6.69291
3332,60.6903,6.49606
3336,60.7571,7.87402
3340,60.824,8.07087
3344,60.8908,8.66142
3348,60.9577,5.11811
3352,61.0245,7.08661
3356,61.0914,5.11811
3360,61.1582,6.10236
3364,61.2251,5.70866
3368,61.2919,4.13386
3372,61.3588,5.11811
3376,61.4256,6.29921
3380,61.4924,6.49606
3384,61.5593,6.29921
3388,61.6261,5.70866
3392,61.693,6.29921
3396,61.7598,7.08661
3400,61.8267,6.88976
3404,61.8935,7.67717
3408,61.9604,7.48031
3412,62.0272,6.88976
3416,62.0941,6.10236
3420,62.1609,8.66142
3424,62.2277,7.48031
3428,62.2946,5.11811
3432,62.3614,4.72441
3436,62.4283,3.74016
3440,62.4951,7.08661
3444,62.562,6.69291
3448,62.6288,6.49606
3452,62.6957,6.29921
3456,62.7625,8.07087
3460,62.8293,8.46457
3464,62.8962,7.87402
3468,62.963,5.11811
3472,63.0299,7.87402
3476,63.0967,8.07087
3480,63.1636,6.88976
3484,63.2304,7.87402
3488,63.2973,10.8268
3492,63.3641,8.66142
3496,63.431,10.2362
3500,63.4978,15.9449
3504,63.5646,18.5039
3508,63.6315,14.3701
3512,63.6983,11.2205
3516,63.7652,10.2362
3520,63.832,13.5827
3524,63.8989,8.66142
3528,63.9657,9.44882
3532,64.0326,6.29921
3536,64.0994,10.6299
3540,64.1662,10.2362
3544,64.2331,7.48031
3548,64.2999,8.07087
3552,64.3668,10.8268
3556,64.4336,10.2362
3560,64.5005,6.69291
3564,64.5673,10.2362
3568,64.6342,10.6299
3572,64.701,11.2205
3576,64.7679,9.05512
3580,64.8347,8.66142
3584,64.9015,8.07087
3588,64.9684,6.88976
3592,65.0352,8.07087
3596,65.1021,8.07087
3600,65.1689,8.07087
3604,65.2358,11.0236
3608,65.3026,9.84252
3612,65.3695,10.2362
3616,65.4363,9.64567
3620,65.5031,8.46457
3624,65.57,7.08661
3628,65.6368,7.67717
3632,65.7037,6.88976
3636,65.7705,5.51181
3640,65.8374,7.67717
3644,65.9042,9.64567
3648,65.9711,6.29921
3652,66.0379,9.64567
3656,66.1048,10.6299
3660,66.1716,6.69291
3664,66.2384,8.46457
3668,66.3053,8.07087
3672,66.3721,7.08661
3676,66.439,7.87402
3680,66.5058,8.46457
3684,66.5727,6.69291
3688,66.6395,8.26772
3692,66.7064,7.48031
3696,66.7732,5.11811
3700,66.8401,9.05512
3704,66.9069,7.48031
3708,66.9737,8.46457
3712,67.0406,8.66142
3716,67.1074,9.64567
3720,67.1743,7.08661
3724,67.2411,8.26772
3728,67.308,11.2205
3732,67.3748,12.0079
3736,67.4417,13.7795
3740,67.5085,16.1417
3744,67.5753,16.7323
3748,67.6422,14.1732
3752,67.709,13.7795
3756,67.7759,12.7953
3760,67.8427,10.6299
3764,67.9096,12.4016
3768,67.9764,7.08661
3772,68.0433,7.48031
3776,68.1101,9.64567
3780,68.177,8.26772
3784,68.2438,8.07087
3788,68.3106,7.67717
3792,68.3775,6.88976
3796,68.4443,6.29921
3800,68.5112,6.88976
3804,68.578,8.26772
3808,68.6449,5.11811
3812,68.7117,6.29921
3816,68.7786,5.31496
3820,68.8454,6.10236
3824,68.9122,6.49606
3828,68.9791,5.70866
3832,69.0459,7.87402
3836,69.1128,7.08661
3840,69.1796,6.69291
3844,69.2465,4.72441
3848,69.3133,4.72441
3852,69.3802,6.10236
3856,69.447,5.70866
3860,69.5139,9.44882
3864,69.5807,8.26772
3868,69.6475,5.31496
3872,69.7144,6.88976
3876,69.7812,5.11811
3880,69.8481,6.29921
3884,69.9149,5.70866
3888,69.9818,7.87402
3892,70.0486,6.49606
3896,70.1155,5.11811
3900,70.1823,6.69291
3904,70.2491,7.67717
3908,70.316,5.51181
3912,70.3828,9.64567
3916,70.4497,10.2362
3920,70.5165,8.07087
3924,70.5834,8.07087
3928,70.6502,10.8268
3932,70.7171,10.6299
3936,70.7839,10.2362
3940,70.8508,7.87402
3944,70.9176,7.87402
3948,70.9844,6.29921
3952,71.0513,4.52756
3956,71.1181,4.72441
3960,71.185,6.49606
3964,71.2518,7.87402
3968,71.3187,6.88976
3972,71.3855,6.88976
3976,71.4524,8.07087
3980,71.5192,5.70866
3984,71.5861,6.10236
3988,71.6529,6.49606
3992,71.7197,6.10236
3996,71.7866,4.92126
4000,71.8534,5.51181
4004,71.9203,8.07087
4008,71.9871,9.05512
4012,72.054,4.52756
4016,72.1208,3.93701
4020,72.1877,5.31496
4024,72.2545,7.08661
4028,72.3213,5.70866
4032,72.3882,5.51181
4036,72.455,6.88976
4040,72.5219,5.70866
4044,72.5887,8.26772
4048,72.6556,6.10236
4052,72.7224,5.70866
4056,72.7893,6.29921
4060,72.8561,7.67717
4064,72.923,8.26772
4068,72.9898,8.66142
4072,73.0566,7.87402
4076,73.1235,8.26772
4080,73.1903,9.44882
4084,73.2572,5.70866
4088,73.324,8.26772
4092,73.3909,6.10236
4096,73.4577,9.84252
4100,73.5246,6.10236
4104,73.5914,4.92126
4108,73.6582,7.48031
4112,73.7251,7.48031
4116,73.7919,4.92126
4120,73.8588,6.69291
4124,73.9256,5.70866
4128,73.9925,5.51181
4132,74.0593,7.67717
4136,74.1262,7.08661
4140,74.193,6.69291
4144,74.2599,6.69291
4148,74.3267,5.51181
4152,74.3935,7.67717
4156,74.4604,7.48031
4160,74.5272,7.67717
4164,74.5941,6.88976
4168,74.6609,6.29921
4172,74.7278,6.29921
4176,74.7946,8.66142
4180,74.8615,9.84252
4184,74.9283,6.69291
4188,74.9952,7.67717
4192,75.062,8.46457
4196,75.1288,6.88976
4200,75.1957,6.69291
4204,75.2625,8.07087
4208,75.3294,6.49606
4212,75.3962,7.48031
4216,75.4631,6.88976
4220,75.5299,5.11811
4224,75.5968,6.29921
4228,75.6636,8.66142
4232,75.7304,6.29921
4236,75.7973,6.10236
4240,75.8641,8.46457
4244,75.931,6.88976
4248,75.9978,4.92126
4252,76.0647,7.48031
4256,76.1315,6.49606
4260,76.1984,7.67717
4264,76.2652,5.11811
4268,76.3321,7.48031
4272,76.3989,6.69291
4276,76.4657,8.07087
4280,76.5326,5.51181
4284,76.5994,7.87402
4288,76.6663,4.13386
4292,76.7331,7.67717
4296,76.8,6.10236
4300,76.8668,9.05512
4304,76.9337,10.2362
4308,77.0005,9.25197
4312,77.0673,11.0236
4316,77.1342,11.0236
4320,77.201,7.67717
4324,77.2679,9.25197
4328,77.3347,9.84252
4332,77.4016,7.67717
4336,77.4684,10.6299
4340,77.5353,8.26772
4344,77.6021,7.67717
4348,77.669,7.08661
4352,77.7358,4.52756
4356,77.8026,3.93701
4360,77.8695,7.08661
4364,77.9363,8.46457
4368,78.0032,6.29921
4372,78.07,6.49606
4376,78.1369,6.49606
4380,78.2037,5.70866
4384,78.2706,5.31496
4388,78.3374,4.52756
4392,78.4042,6.49606
4396,78.4711,7.67717
4400,78.5379,8.66142
4404,78.6048,6.69291
4408,78.6716,6.69291
4412,78.7385,5.51181
4416,78.8053,6.10236
4420,78.8722,4.72441
4424,78.939,6.29921
4428,79.0059,7.08661
4432,79.0727,6.29921
4436,79.1395,6.29921
4440,79.2064,8.07087
4444,79.2732,6.29921
4448,79.3401,6.49606
4452,79.4069,6.69291
4456,79.4738,9.44882
4460,79.5406,6.69291
4464,79.6075,6.29921
4468,79.6743,6.88976
4472,79.7412,10.0394
4476,79.808,5.70866
4480,79.8748,10.0394
4484,79.9417,8.26772
4488,80.0085,8.66142
4492,80.0754,6.10236
4496,80.1422,8.46457
4500,80.2091,7.48031
4504,80.2759,8.26772
4508,80.3428,8.07087
4512,80.4096,5.70866
4516,80.4764,9.64567
4520,80.5433,6.88976
4524,80.6101,6.10236
4528,80.677,7.87402
4532,80.7438,4.92126
4536,80.8107,7.87402
4540,80.8775,6.10236
4544,80.9444,6.88976
4548,81.0112,7.67717
4552,81.0781,7.67717
4556,81.1449,5.31496
4560,81.2117,9.05512
4564,81.2786,5.51181
4568,81.3454,7.48031
4572,81.4123,8.66142
4576,81.4791,6.49606
4580,81.546,8.46457
4584,81.6128,8.26772
4588,81.6797,9.84252
4592,81.7465,8.26772
4596,81.8133,6.29921
4600,81.8802,5.11811
4604,81.947,8.46457
4608,82.0139,6.29921
4612,82.0807,8.07087
4616,82.1476,6.88976
4620,82.2144,7.08661
4624,82.2813,8.07087
4628,82.3481,6.49606
4632,82.415,4.13386
4636,82.4818,8.26772
4640,82.5486,9.84252
4644,82.6155,6.88976
4648,82.6823,8.07087
4652,82.7492,8.26772
4656,82.816,7.87402
4660,82.8829,9.84252
4664,82.9497,7.87402
4668,83.0166,8.07087
4672,83.0834,7.08661
4676,83.1502,6.10236
4680,83.2171,7.67717
4684,83.2839,7.67717
4688,83.3508,5.11811
4692,83.4176,8.07087
4696,83.4845,4.72441
4700,83.5513,4.92126
4704,83.6182,6.88976
4708,83.685,7.67717
4712,83.7519,7.48031
4716,83.8187,7.48031
4720,83.8855,8.46457
4724,83.9524,7.08661
4728,84.0192,4.72441
4732,84.0861,6.29921
4736,84.1529,4.72441
4740,84.2198,6.69291
4744,84.2866,3.93701
4748,84.3535,7.48031
4752,84.4203,6.69291
4756,84.4872,5.51181
4760,84.554,5.70866
4764,84.6208,9.05512
4768,84.6877,8.26772
4772,84.7545,6.69291
4776,84.8214,7.08661
4780,84.8882,7.87402
4784,84.9551,5.31496
4786,84.9885,9.44882